!---------------------------------------------------------------------
! ZVC, 3.52
!---------------------------------------------------------------------
! symbol freq-unit parameter-type data-format keyword impedance-ohm
#        HZ        S              DB          R       50
!---------------------------------------------------------------------
! freq                dbS11          angS11          dbS21          angS21          dbS12          angS12          dbS22          angS22          
  3.70000000000E+09 -0.244063        128.064       -52.3841         146.619       -51.9102         146.518       -0.452975        91.1392      
  3.70100000000E+09 -0.244           128.003       -51.7771         145.738       -51.7823         145.424       -0.450969        91.0743      
  3.70200000000E+09 -0.242515        127.93        -51.8698         145.179       -51.6136         145.885       -0.454943        90.9617      
  3.70300000000E+09 -0.243229        127.866       -51.9412         144.008       -51.5487         145.369       -0.453638        90.8816      
  3.70400000000E+09 -0.244559        127.779       -51.8152         144.807       -51.6462         144.829       -0.456371        90.8308      
  3.70500000000E+09 -0.245916        127.717       -51.6437         145.272       -51.8628         144.593       -0.450517        90.7901      
  3.70600000000E+09 -0.247396        127.658       -51.9076         145.487       -51.4598         145.92        -0.448791        90.6991      
  3.70700000000E+09 -0.244978        127.578       -51.4224         146.92        -51.5742         144.26        -0.44985         90.5693      
  3.70800000000E+09 -0.243227        127.512       -51.7434         144.861       -51.5981         143.806       -0.452442        90.5828      
  3.70900000000E+09 -0.245683        127.445       -51.602          145.572       -51.4932         143.423       -0.451266        90.4718      
  3.71000000000E+09 -0.246333        127.379       -51.6561         144.833       -51.5692         144.938       -0.454449        90.3968      
  3.71100000000E+09 -0.246806        127.285       -51.4966         145.012       -51.6495         143.522       -0.449547        90.3317      
  3.71200000000E+09 -0.247889        127.248       -51.5739         145.03        -51.7075         143.069       -0.454225        90.2693      
  3.71300000000E+09 -0.250407        127.179       -51.5388         144.918       -51.559          144.544       -0.450909        90.1608      
  3.71400000000E+09 -0.246299        127.109       -51.5134         142.646       -51.4643         143.9         -0.450405        90.1227      
  3.71500000000E+09 -0.253343        127.028       -51.4799         145.101       -51.3691         144.886       -0.449907        90.0151      
  3.71600000000E+09 -0.250364        126.95        -51.2375         145.36        -51.3265         143.914       -0.448066        89.9811      
  3.71700000000E+09 -0.250133        126.888       -51.3827         143.415       -51.2104         144.163       -0.444956        89.8835      
  3.71800000000E+09 -0.253859        126.802       -51.1854         144.549       -51.2353         143.169       -0.449594        89.8287      
  3.71900000000E+09 -0.251359        126.753       -51.2857         143.335       -51.0819         143.731       -0.454146        89.659       
  3.72000000000E+09 -0.24767         126.675       -51.2241         143.904       -51.0896         142.704       -0.448779        89.5638      
  3.72100000000E+09 -0.254363        126.605       -50.9925         142.514       -51.0428         141.772       -0.451098        89.5697      
  3.72200000000E+09 -0.249518        126.55        -51.0482         143.05        -50.8392         142.114       -0.450395        89.5209      
  3.72300000000E+09 -0.252697        126.714       -51.1724         140.725       -51.092          142.212       -0.45206         89.3498      
  3.72400000000E+09 -0.246104        126.864       -51.1731         141.652       -51.264          143.164       -0.449827        89.3336      
  3.72500000000E+09 -0.247877        126.791       -51.1414         140.653       -51.1589         142.24        -0.44607         89.2739      
  3.72600000000E+09 -0.251106        126.903       -50.8301         141.45        -51.095          142.206       -0.443176        89.2185      
  3.72700000000E+09 -0.24882         126.835       -51.0068         141.204       -51.025          141.166       -0.454305        89.131       
  3.72800000000E+09 -0.248571        126.785       -51.041          141.414       -51.1372         140.49        -0.444995        89.0635      
  3.72900000000E+09 -0.249853        126.724       -51.2086         140.126       -51.2181         140.754       -0.441001        89.0094      
  3.73000000000E+09 -0.250652        126.622       -51.2741         140.544       -51.0619         140.696       -0.444974        88.9012      
  3.73100000000E+09 -0.250958        126.553       -51.2563         139.524       -50.9268         140.519       -0.444442        88.8458      
  3.73200000000E+09 -0.253568        126.481       -51.1045         141.466       -50.9132         140.897       -0.445078        88.7252      
  3.73300000000E+09 -0.254505        126.419       -51.0928         140.676       -51.0772         139.516       -0.444132        88.6995      
  3.73400000000E+09 -0.248314        126.351       -50.9377         140.419       -51.0346         140.144       -0.444027        88.6052      
  3.73500000000E+09 -0.253904        126.279       -51.027          140.215       -50.9384         140.254       -0.441193        88.5683      
  3.73600000000E+09 -0.251178        126.208       -51.2093         140.905       -50.9986         140.192       -0.442003        88.4978      
  3.73700000000E+09 -0.248735        126.104       -51.1779         140.272       -51.0542         139.8         -0.449943        88.3746      
  3.73800000000E+09 -0.256577        126.087       -51.0836         140.781       -50.8903         140.732       -0.441399        88.3078      
  3.73900000000E+09 -0.249893        125.975       -51.2645         140.164       -51.0057         140.092       -0.445724        88.2421      
  3.74000000000E+09 -0.257187        125.91        -50.9521         139.708       -51.1203         139.879       -0.449999        88.1503      
  3.74100000000E+09 -0.25917         125.85        -50.9585         141.236       -50.6835         141.056       -0.443394        88.1034      
  3.74200000000E+09 -0.249024        125.79        -50.7713         140.398       -50.6769         140.189       -0.442464        87.9839      
  3.74300000000E+09 -0.250703        125.721       -50.7648         139.915       -50.6175         140.252       -0.447237        87.9499      
  3.74400000000E+09 -0.262641        125.655       -50.9743         139.518       -50.778          139.711       -0.443853        87.8714      
  3.74500000000E+09 -0.253085        125.556       -50.8878         140.12        -50.8546         139.258       -0.444863        87.7825      
  3.74600000000E+09 -0.264942        125.488       -50.8317         139.73        -50.8169         140.666       -0.449277        87.7108      
  3.74700000000E+09 -0.255816        125.422       -50.7925         139.349       -50.8486         139.803       -0.445891        87.6503      
  3.74800000000E+09 -0.259285        125.434       -50.7738         141           -50.8539         139.959       -0.449383        87.5536      
  3.74900000000E+09 -0.254105        125.291       -50.73           140.746       -50.8849         138.889       -0.45001         87.4853      
  3.75000000000E+09 -0.262311        125.231       -50.7419         141.592       -50.9063         141.02        -0.449255        87.4045      
  3.75100000000E+09 -0.262918        125.434       -50.8082         141.278       -50.699          139.71        -0.449313        87.3291      
  3.75200000000E+09 -0.257884        125.332       -50.6967         140.753       -50.7662         141.405       -0.445574        87.2476      
  3.75300000000E+09 -0.255239        125.226       -50.7549         140.944       -50.5596         139.587       -0.450941        87.1888      
  3.75400000000E+09 -0.259978        125.225       -50.6153         140.262       -50.6127         139.584       -0.444017        87.0489      
  3.75500000000E+09 -0.257643        125.156       -50.7221         139.767       -50.4472         140.283       -0.445962        87.0362      
  3.75600000000E+09 -0.25643         125.066       -50.4785         139.957       -50.6813         141.308       -0.449427        86.9652      
  3.75700000000E+09 -0.262889        124.951       -50.3617         140.08        -50.3494         140.544       -0.448703        86.8432      
  3.75800000000E+09 -0.261875        124.925       -50.4254         139.978       -50.5592         141.065       -0.443126        86.7994      
  3.75900000000E+09 -0.267207        124.875       -50.3217         140.606       -50.2434         140.56        -0.444433        86.7264      
  3.76000000000E+09 -0.256734        124.794       -50.1949         139.92        -50.3366         140.215       -0.449242        86.6683      
  3.76100000000E+09 -0.260001        124.684       -50.3706         139.459       -50.1851         140.116       -0.451158        86.6458      
  3.76200000000E+09 -0.262484        124.688       -50.2275         140.32        -50.193          139.636       -0.436003        86.5092      
  3.76300000000E+09 -0.266368        124.558       -50.2207         139.712       -50.0493         140.984       -0.44689         86.4183      
  3.76400000000E+09 -0.261164        124.49        -50.1057         139.578       -50.2116         138.833       -0.453611        86.3535      
  3.76500000000E+09 -0.265906        124.413       -50.198          138.396       -50.1305         140.701       -0.450045        86.3377      
  3.76600000000E+09 -0.268732        124.332       -49.9325         138.738       -50.0918         139.965       -0.453566        86.1783      
  3.76700000000E+09 -0.26846         124.312       -49.9842         139.814       -50.1631         139.79        -0.447361        86.0927      
  3.76800000000E+09 -0.26581         124.21        -50.1745         138.773       -49.9764         140.142       -0.45382         86.1187      
  3.76900000000E+09 -0.272389        124.168       -50.0652         139.689       -50.0901         139.005       -0.451343        86.0164      
  3.77000000000E+09 -0.267598        124.096       -50.1254         138.324       -49.9258         139.393       -0.445433        85.8897      
  3.77100000000E+09 -0.275843        123.95        -50.0868         138.817       -50.0338         138.916       -0.448363        85.8652      
  3.77200000000E+09 -0.268963        123.962       -50.1685         137.987       -50.1154         138.177       -0.461261        85.7932      
  3.77300000000E+09 -0.268257        123.872       -50.0268         138.659       -49.8167         139.168       -0.457416        85.7663      
  3.77400000000E+09 -0.277923        123.808       -50.0365         138.526       -50.0353         139.819       -0.45389         85.6464      
  3.77500000000E+09 -0.264438        123.687       -50.0906         139.466       -50.0817         138.415       -0.450191        85.5626      
  3.77600000000E+09 -0.276075        123.659       -50.0464         139.105       -49.9433         140.187       -0.456805        85.479       
  3.77700000000E+09 -0.274793        123.55        -49.989          139.752       -49.9883         138.529       -0.462736        85.4114      
  3.77800000000E+09 -0.273308        124.11        -49.9603         139.541       -49.7703         139.682       -0.455328        85.3904      
  3.77900000000E+09 -0.266172        124.066       -49.7668         139.96        -49.8466         139.428       -0.454046        85.265       
  3.78000000000E+09 -0.269787        124.011       -49.9024         139.708       -49.8406         139.558       -0.450797        85.2027      
  3.78100000000E+09 -0.268844        123.905       -49.7525         139.836       -49.8701         139.874       -0.45254         85.0704      
  3.78200000000E+09 -0.27358         123.865       -49.8215         140.313       -49.7382         139.586       -0.456842        85.0472      
  3.78300000000E+09 -0.27344         123.79        -49.8379         139.584       -49.7495         140.168       -0.452985        84.9304      
  3.78400000000E+09 -0.26974         123.714       -49.763          139.798       -49.587          140.003       -0.460834        84.8611      
  3.78500000000E+09 -0.269939        123.651       -49.7166         139.878       -49.7407         140.602       -0.454602        84.7995      
  3.78600000000E+09 -0.279101        123.591       -49.7758         139.692       -49.6898         139.038       -0.456385        84.6948      
  3.78700000000E+09 -0.279554        123.578       -49.6586         140.485       -49.6335         139.625       -0.459564        84.6175      
  3.78800000000E+09 -0.273473        123.439       -49.7222         140.454       -49.722          140.191       -0.455578        84.5674      
  3.78900000000E+09 -0.278938        123.369       -49.5092         140.648       -49.6835         139.568       -0.456013        84.4614      
  3.79000000000E+09 -0.273582        123.315       -49.5578         141.07        -49.5722         141.097       -0.463959        84.4208      
  3.79100000000E+09 -0.274827        123.249       -49.4909         141.648       -49.4862         142.059       -0.459643        84.3343      
  3.79200000000E+09 -0.275593        123.104       -49.4987         141.951       -49.4023         140.684       -0.459403        84.2484      
  3.79300000000E+09 -0.276641        123.139       -49.406          142.492       -49.3903         141.744       -0.464786        84.1583      
  3.79400000000E+09 -0.278519        123.043       -49.3718         141.357       -49.3288         141.248       -0.461707        84.0811      
  3.79500000000E+09 -0.279198        122.959       -49.2786         140.413       -49.1378         142.727       -0.462054        84.0245      
  3.79600000000E+09 -0.279113        122.893       -49.3556         140.482       -49.211          142.462       -0.462443        83.9448      
  3.79700000000E+09 -0.282006        122.805       -49.0015         142.014       -49.1709         142.011       -0.463158        83.885       
  3.79800000000E+09 -0.284358        122.761       -49.0283         141.529       -49.0231         141.795       -0.462588        83.7812      
  3.79900000000E+09 -0.282542        122.65        -48.923          141.093       -49.0442         140.611       -0.462129        83.6937      
  3.80000000000E+09 -0.287068        122.573       -48.7522         141.473       -49.0271         141.208       -0.466113        83.6256      
  3.80100000000E+09 -0.282558        122.554       -48.8952         141.539       -48.7388         141.834       -0.464013        83.5647      
  3.80200000000E+09 -0.28573         122.466       -48.893          141.333       -48.8974         141.539       -0.467326        83.4708      
  3.80300000000E+09 -0.28262         122.362       -48.7572         140.861       -48.9887         141.885       -0.466297        83.4255      
  3.80400000000E+09 -0.287354        122.375       -48.822          141.574       -48.8133         141.109       -0.460863        83.3437      
  3.80500000000E+09 -0.288945        122.24        -48.6184         141.637       -48.6187         141.536       -0.463565        83.2476      
  3.80600000000E+09 -0.284658        122.174       -48.6758         141.769       -48.6687         140.651       -0.466976        83.1599      
  3.80700000000E+09 -0.285001        122.103       -48.5635         141.201       -48.5917         141.421       -0.467464        83.1086      
  3.80800000000E+09 -0.282731        122.047       -48.519          141.03        -48.4589         142.174       -0.467393        83.0591      
  3.80900000000E+09 -0.290136        121.97        -48.4757         141.599       -48.4818         141.84        -0.470629        82.9035      
  3.81000000000E+09 -0.287444        121.869       -48.5262         141.023       -48.3172         140.921       -0.469235        82.8589      
  3.81100000000E+09 -0.284972        121.871       -48.3103         141.654       -48.314          140.714       -0.471903        82.8225      
  3.81200000000E+09 -0.292637        121.753       -48.3841         142.752       -48.3081         141.839       -0.468789        82.687       
  3.81300000000E+09 -0.292052        121.699       -48.2733         142.121       -48.2166         141.302       -0.463126        82.6488      
  3.81400000000E+09 -0.28834         121.608       -48.1432         142.714       -48.096          141.262       -0.475735        82.6149      
  3.81500000000E+09 -0.295109        121.521       -48.1502         141.854       -48.0535         141.462       -0.474217        82.5048      
  3.81600000000E+09 -0.297179        121.501       -48.0769         141.4         -48.0944         142.008       -0.477096        82.4233      
  3.81700000000E+09 -0.296687        121.433       -48.1268         142.423       -48.0766         141.076       -0.47725         82.3548      
  3.81800000000E+09 -0.287673        121.355       -47.9436         141.499       -47.9808         142.16        -0.470428        82.2686      
  3.81900000000E+09 -0.290889        121.204       -47.8512         142.206       -48.074          142.046       -0.48052         82.1724      
  3.82000000000E+09 -0.291237        121.188       -47.9918         141.244       -47.9699         142.201       -0.471191        82.0813      
  3.82100000000E+09 -0.295764        121.117       -48.0411         141.673       -48.0158         141.591       -0.47566         82.0767      
  3.82200000000E+09 -0.294195        121.083       -47.7985         142.545       -47.9837         142.279       -0.466862        81.93        
  3.82300000000E+09 -0.295113        121.011       -47.7999         142.334       -47.715          142.704       -0.479553        81.9259      
  3.82400000000E+09 -0.296562        120.935       -47.8407         143.193       -47.8725         142.894       -0.474745        81.8354      
  3.82500000000E+09 -0.298472        120.82        -47.7928         142.945       -47.7767         143.663       -0.478551        81.7331      
  3.82600000000E+09 -0.292504        121.094       -47.5592         144.393       -47.5841         142.725       -0.475857        81.7         
  3.82700000000E+09 -0.295596        120.996       -47.5303         143.753       -47.6159         143.433       -0.477457        81.588       
  3.82800000000E+09 -0.29129         120.957       -47.5245         144.538       -47.5531         143.974       -0.477826        81.5286      
  3.82900000000E+09 -0.290672        120.87        -47.4603         144.022       -47.4623         144.243       -0.477961        81.4169      
  3.83000000000E+09 -0.297096        120.789       -47.3244         144.656       -47.2902         144.683       -0.469395        81.3641      
  3.83100000000E+09 -0.292216        120.727       -47.3794         144.846       -47.3297         144.7         -0.475578        81.3281      
  3.83200000000E+09 -0.294081        120.662       -47.1275         145.751       -47.1689         144.743       -0.480291        81.244       
  3.83300000000E+09 -0.29924         120.604       -47.0621         145.189       -46.9858         145.201       -0.480373        81.173       
  3.83400000000E+09 -0.296018        120.496       -46.9277         145.001       -46.893          145.382       -0.470959        81.0532      
  3.83500000000E+09 -0.298881        120.448       -46.8319         145.938       -46.7609         145.736       -0.480378        81.0037      
  3.83600000000E+09 -0.296911        120.369       -46.7367         145.791       -46.7571         145.999       -0.47797         80.8909      
  3.83700000000E+09 -0.296755        120.293       -46.5706         146.029       -46.5427         146.096       -0.481019        80.8545      
  3.83800000000E+09 -0.299437        120.211       -46.5569         145.514       -46.5233         145.59        -0.478669        80.7329      
  3.83900000000E+09 -0.298905        120.152       -46.3398         146.067       -46.3869         145.932       -0.477406        80.6894      
  3.84000000000E+09 -0.301289        120.081       -46.2539         145.962       -46.3491         146.202       -0.478736        80.6181      
  3.84100000000E+09 -0.303103        120.026       -46.1898         146.234       -46.1975         146.333       -0.478858        80.5691      
  3.84200000000E+09 -0.302639        119.917       -46.0605         146.133       -46.1846         146.585       -0.482993        80.4738      
  3.84300000000E+09 -0.302267        119.854       -45.9801         146.536       -46.0525         145.98        -0.481951        80.3833      
  3.84400000000E+09 -0.303921        119.795       -45.9777         146.523       -45.8692         146.107       -0.484716        80.2986      
  3.84500000000E+09 -0.305598        119.708       -45.7892         145.742       -45.7651         145.832       -0.484252        80.2419      
  3.84600000000E+09 -0.307509        119.636       -45.6864         145.386       -45.6445         146.13        -0.481555        80.1666      
  3.84700000000E+09 -0.305812        119.565       -45.5741         145.492       -45.5173         145.244       -0.485477        80.103       
  3.84800000000E+09 -0.306825        119.491       -45.4848         145.383       -45.3977         144.913       -0.487553        80.0086      
  3.84900000000E+09 -0.308131        119.428       -45.4172         145.015       -45.3951         144.724       -0.485368        79.9383      
  3.85000000000E+09 -0.309323        119.352       -45.3924         145.253       -45.2207         145.133       -0.486728        79.853       
  3.85100000000E+09 -0.310046        119.282       -45.1525         145.115       -45.1582         145.266       -0.485617        79.7943      
  3.85200000000E+09 -0.310203        119.198       -45.0641         145.921       -45.1684         145.362       -0.48408         79.7454      
  3.85300000000E+09 -0.310887        119.139       -45.0813         145.298       -45.0463         146.109       -0.493485        79.6445      
  3.85400000000E+09 -0.309761        119.07        -45.044          145.819       -44.9007         145.827       -0.488946        79.5664      
  3.85500000000E+09 -0.309584        118.988       -44.7826         145.451       -44.8141         145.753       -0.487542        79.4628      
  3.85600000000E+09 -0.310946        118.909       -44.7116         145.872       -44.7555         145.369       -0.487528        79.4095      
  3.85700000000E+09 -0.313647        118.848       -44.5129         145.683       -44.5332         146.136       -0.491108        79.2956      
  3.85800000000E+09 -0.313774        118.786       -44.4783         145.918       -44.4804         145.929       -0.492082        79.2366      
  3.85900000000E+09 -0.315581        118.705       -44.3164         145.533       -44.378          145.794       -0.489259        79.1576      
  3.86000000000E+09 -0.314716        118.629       -44.193          145.692       -44.1717         145.677       -0.484188        79.1579      
  3.86100000000E+09 -0.315008        118.562       -44.1083         146.294       -44.0709         145.793       -0.485127        78.9998      
  3.86200000000E+09 -0.316384        118.489       -44.0444         146.23        -44.0033         145.408       -0.48457         78.9503      
  3.86300000000E+09 -0.317499        118.408       -43.8827         145.059       -43.8227         145.074       -0.495648        78.9097      
  3.86400000000E+09 -0.317423        118.336       -43.7929         145.265       -43.7607         145.66        -0.496934        78.7479      
  3.86500000000E+09 -0.319849        118.258       -43.6519         145.423       -43.6934         145.232       -0.504557        78.6732      
  3.86600000000E+09 -0.315653        118.198       -43.4986         145.139       -43.4604         145.339       -0.499229        78.5812      
  3.86700000000E+09 -0.320511        118.11        -43.3996         145.386       -43.3956         145.415       -0.494277        78.5499      
  3.86800000000E+09 -0.32534         118.063       -43.298          144.827       -43.1942         144.939       -0.490979        78.4927      
  3.86900000000E+09 -0.320634        117.99        -43.0856         145.398       -43.0691         144.708       -0.506575        78.3134      
  3.87000000000E+09 -0.325225        117.894       -42.9503         144.61        -42.9563         144.561       -0.508134        78.3067      
  3.87100000000E+09 -0.325713        117.839       -42.8764         144.701       -42.8083         144.564       -0.495967        78.2113      
  3.87200000000E+09 -0.328492        117.743       -42.7048         144.475       -42.662          144.244       -0.504215        78.1566      
  3.87300000000E+09 -0.325381        117.679       -42.5515         144.04        -42.596          144.18        -0.502069        78.0467      
  3.87400000000E+09 -0.323651        117.622       -42.4185         143.888       -42.4188         143.559       -0.511276        77.9967      
  3.87500000000E+09 -0.326285        117.557       -42.3576         143.909       -42.3115         143.602       -0.510212        77.9128      
  3.87600000000E+09 -0.332684        117.478       -42.1571         143.715       -42.1746         143.672       -0.509039        77.8569      
  3.87700000000E+09 -0.333534        117.411       -42.1203         143.619       -42.076          143.333       -0.522913        77.8015      
  3.87800000000E+09 -0.331451        117.301       -41.9335         143.401       -41.9349         143.227       -0.518103        77.7128      
  3.87900000000E+09 -0.330784        117.27        -41.8517         142.772       -41.8393         143.181       -0.508211        77.642       
  3.88000000000E+09 -0.33265         117.147       -41.8085         143.036       -41.7232         142.513       -0.510127        77.5315      
  3.88100000000E+09 -0.332495        117.089       -41.6447         143.089       -41.5994         142.865       -0.502737        77.5098      
  3.88200000000E+09 -0.327801        116.991       -41.5408         142.502       -41.4911         142.947       -0.516759        77.4056      
  3.88300000000E+09 -0.33665         116.933       -41.4456         142.692       -41.4189         142.272       -0.517125        77.3301      
  3.88400000000E+09 -0.336962        116.879       -41.309          142.817       -41.224          142.304       -0.518707        77.1742      
  3.88500000000E+09 -0.337798        116.768       -41.1203         142.799       -41.1558         143.15        -0.521171        77.1615      
  3.88600000000E+09 -0.333991        116.727       -41.048          142.837       -40.9536         142.651       -0.524505        77.0999      
  3.88700000000E+09 -0.344532        116.629       -40.8262         142.725       -40.811          142.941       -0.516536        77.0201      
  3.88800000000E+09 -0.344691        116.565       -40.6368         142.84        -40.5974         142.821       -0.526586        76.9145      
  3.88900000000E+09 -0.338575        116.487       -40.472          143.024       -40.3985         142.845       -0.520643        76.8326      
  3.89000000000E+09 -0.344506        116.378       -40.3133         142.094       -40.315          142.449       -0.522686        76.7447      
  3.89100000000E+09 -0.343248        116.332       -40.1298         142.385       -40.0911         142.066       -0.532743        76.6741      
  3.89200000000E+09 -0.350431        116.247       -39.9407         141.906       -39.8666         141.999       -0.530627        76.5849      
  3.89300000000E+09 -0.350932        116.161       -39.7643         142.044       -39.7581         141.665       -0.533266        76.5088      
  3.89400000000E+09 -0.350872        116.084       -39.6015         141.792       -39.5553         141.539       -0.533402        76.413       
  3.89500000000E+09 -0.350919        116.027       -39.4459         141.423       -39.4109         141.575       -0.535535        76.3449      
  3.89600000000E+09 -0.343915        115.927       -39.2186         141.541       -39.1911         141.395       -0.541018        76.2646      
  3.89700000000E+09 -0.357982        115.824       -39.0282         141.192       -38.9847         140.981       -0.542392        76.1812      
  3.89800000000E+09 -0.347589        115.774       -38.775          140.748       -38.8004         141.008       -0.546539        76.1022      
  3.89900000000E+09 -0.369913        116.171       -38.6223         140.645       -38.5823         140.501       -0.551352        75.9971      
  3.90000000000E+09 -0.35403         116.012       -38.3544         140.316       -38.3482         139.986       -0.552536        75.9261      
  3.90100000000E+09 -0.353572        115.905       -38.1793         139.745       -38.1355         139.753       -0.552895        75.8758      
  3.90200000000E+09 -0.361565        115.851       -37.9488         139.122       -37.9258         139.023       -0.557927        75.7396      
  3.90300000000E+09 -0.362613        115.727       -37.7658         138.735       -37.7299         138.775       -0.559249        75.694       
  3.90400000000E+09 -0.366174        115.679       -37.5635         138.27        -37.5272         138.233       -0.561389        75.5993      
  3.90500000000E+09 -0.358663        115.644       -37.3875         137.973       -37.3601         137.667       -0.571219        75.5162      
  3.90600000000E+09 -0.36804         115.528       -37.14           137.413       -37.1254         137.317       -0.569928        75.453       
  3.90700000000E+09 -0.377845        115.443       -36.9306         136.958       -36.9044         136.809       -0.57412         75.3641      
  3.90800000000E+09 -0.380144        115.388       -36.7369         136.666       -36.6765         136.358       -0.575624        75.3112      
  3.90900000000E+09 -0.387628        115.262       -36.5055         136.052       -36.4745         135.787       -0.58201         75.1931      
  3.91000000000E+09 -0.385081        115.192       -36.2341         135.556       -36.2361         135.287       -0.585905        75.1077      
  3.91100000000E+09 -0.389977        115.089       -35.9809         134.802       -35.9609         134.708       -0.590618        75.0378      
  3.91200000000E+09 -0.394985        115.078       -35.7226         134.422       -35.7259         134.127       -0.594414        74.9604      
  3.91300000000E+09 -0.388593        114.981       -35.4875         133.397       -35.4487         133.381       -0.598951        74.9188      
  3.91400000000E+09 -0.396657        114.931       -35.223          132.632       -35.159          132.556       -0.601519        74.8371      
  3.91500000000E+09 -0.40748         114.843       -34.9568         131.893       -34.9335         131.409       -0.621164        74.7335      
  3.91600000000E+09 -0.408016        114.711       -34.6973         130.855       -34.6749         130.716       -0.622525        74.6149      
  3.91700000000E+09 -0.415577        114.672       -34.4398         129.948       -34.4044         129.592       -0.624217        74.5292      
  3.91800000000E+09 -0.414231        114.569       -34.168          128.943       -34.1156         128.848       -0.641747        74.4858      
  3.91900000000E+09 -0.426739        114.515       -33.871          127.9         -33.8589         127.681       -0.640305        74.4286      
  3.92000000000E+09 -0.439007        114.393       -33.59           126.955       -33.5701         126.666       -0.651297        74.3573      
  3.92100000000E+09 -0.439891        114.363       -33.3008         125.773       -33.2967         125.612       -0.665243        74.3287      
  3.92200000000E+09 -0.445923        114.263       -32.9932         124.396       -32.9478         124.225       -0.663111        74.1666      
  3.92300000000E+09 -0.468166        114.116       -32.7155         122.913       -32.6734         122.686       -0.677534        74.1412      
  3.92400000000E+09 -0.468364        114.213       -32.4026         121.583       -32.3537         121.264       -0.68655         74.1059      
  3.92500000000E+09 -0.479483        114.075       -32.0863         119.848       -32.0201         119.571       -0.692928        74.039       
  3.92600000000E+09 -0.484991        114.084       -31.7757         118.072       -31.7414         117.948       -0.717039        73.9552      
  3.92700000000E+09 -0.495785        113.958       -31.4557         116.272       -31.4405         116.277       -0.726577        73.9854      
  3.92800000000E+09 -0.508778        113.909       -31.1585         114.431       -31.1119         114.252       -0.734701        73.9241      
  3.92900000000E+09 -0.515338        113.862       -30.8353         112.317       -30.7927         112.193       -0.745953        73.8758      
  3.93000000000E+09 -0.53225         113.887       -30.5232         110.045       -30.5029         109.884       -0.760422        73.8698      
  3.93100000000E+09 -0.549167        113.825       -30.2264         107.751       -30.177          107.258       -0.774469        73.8646      
  3.93200000000E+09 -0.556543        113.79        -29.912          104.988       -29.8901         104.893       -0.785674        73.9116      
  3.93300000000E+09 -0.571909        113.838       -29.6512         102.404       -29.6167         102.183       -0.805728        73.9998      
  3.93400000000E+09 -0.582223        113.797       -29.3951         99.2254       -29.3426         99.2719       -0.813437        74.0103      
  3.93500000000E+09 -0.581442        113.836       -29.1266         96.0596       -29.0975         96.0073       -0.824983        74.0486      
  3.93600000000E+09 -0.604617        113.899       -28.9112         92.7873       -28.8557         92.6744       -0.829971        74.1342      
  3.93700000000E+09 -0.612187        114.027       -28.7011         89.3547       -28.649          89.2329       -0.838103        74.195       
  3.93800000000E+09 -0.618465        114.01        -28.5105         85.7217       -28.4724         85.4634       -0.837962        74.3301      
  3.93900000000E+09 -0.621735        114.152       -28.3744         81.9069       -28.3385         81.8623       -0.8427          74.3646      
  3.94000000000E+09 -0.603318        114.218       -28.2539         78.1192       -28.2129         77.8162       -0.838836        74.4576      
  3.94100000000E+09 -0.612712        114.364       -28.2081         74.1122       -28.1472         73.7521       -0.82846         74.5852      
  3.94200000000E+09 -0.605966        114.276       -28.1771         69.9394       -28.1284         69.831        -0.819854        74.6842      
  3.94300000000E+09 -0.592273        114.387       -28.2215         65.923        -28.1593         65.7554       -0.804631        74.7613      
  3.94400000000E+09 -0.591738        114.438       -28.2788         62.0337       -28.2218         61.8916       -0.786388        74.7938      
  3.94500000000E+09 -0.570143        114.48        -28.3832         58.2915       -28.3491         58.1279       -0.76358         74.8381      
  3.94600000000E+09 -0.550525        114.58        -28.5461         54.4954       -28.4887         54.2633       -0.744767        74.8615      
  3.94700000000E+09 -0.534262        114.551       -28.7119         50.9186       -28.67           50.7515       -0.72292         74.8477      
  3.94800000000E+09 -0.509166        114.501       -28.9328         47.4735       -28.883          47.1946       -0.701017        74.8206      
  3.94900000000E+09 -0.493894        114.435       -29.181          44.2148       -29.1256         44.1527       -0.685903        74.7679      
  3.95000000000E+09 -0.479727        114.417       -29.4425         41.2054       -29.3694         41.1469       -0.663903        74.7194      
  3.95100000000E+09 -0.457349        114.382       -29.6888         38.361        -29.6505         38.3304       -0.645262        74.6399      
  3.95200000000E+09 -0.446936        114.238       -29.9962         35.6737       -29.9215         35.7123       -0.626895        74.5446      
  3.95300000000E+09 -0.434898        114.164       -30.2935         33.3055       -30.2623         33.1559       -0.619496        74.4264      
  3.95400000000E+09 -0.41986         114.133       -30.5931         31.1132       -30.5442         30.9004       -0.599294        74.3217      
  3.95500000000E+09 -0.410103        113.962       -30.9089         29.0183       -30.8537         28.7168       -0.587386        74.2         
  3.95600000000E+09 -0.395082        113.945       -31.2123         26.9014       -31.139          26.9288       -0.576758        74.1291      
  3.95700000000E+09 -0.387388        113.795       -31.5105         25.1567       -31.4701         25.0329       -0.573136        74.0406      
  3.95800000000E+09 -0.380212        113.677       -31.7968         23.3938       -31.7371         23.4161       -0.551751        73.8702      
  3.95900000000E+09 -0.378662        113.576       -32.1106         21.9783       -32.0222         21.6816       -0.540839        73.7819      
  3.96000000000E+09 -0.363278        113.51        -32.3891         20.5287       -32.3226         20.3694       -0.536764        73.6867      
  3.96100000000E+09 -0.355233        113.347       -32.6659         19.2205       -32.6154         19.0362       -0.541167        73.5697      
  3.96200000000E+09 -0.354136        113.298       -32.9591         18.116        -32.89           17.9698       -0.527334        73.436       
  3.96300000000E+09 -0.34748         113.136       -33.231          16.7876       -33.1855         16.7343       -0.513582        73.2735      
  3.96400000000E+09 -0.349916        113.082       -33.507          15.9408       -33.4486         15.521        -0.520587        73.19        
  3.96500000000E+09 -0.342557        113.023       -33.7828         14.9037       -33.7246         14.5496       -0.52241         73.1569      
  3.96600000000E+09 -0.335359        112.842       -34.0077         13.5851       -33.9696         13.7276       -0.514769        72.978       
  3.96700000000E+09 -0.32166         113.143       -34.2877         13.1823       -34.1781         13.1425       -0.494043        72.8372      
  3.96800000000E+09 -0.327784        113.029       -34.5282         12.151        -34.4838         12.0718       -0.510712        72.7868      
  3.96900000000E+09 -0.328988        112.913       -34.757          11.5571       -34.6925         11.5801       -0.50064         72.7063      
  3.97000000000E+09 -0.32535         112.826       -35.0226         10.7536       -34.9698         10.5447       -0.508234        72.6259      
  3.97100000000E+09 -0.317582        112.738       -35.2726         9.89161       -35.1802         10.0002       -0.504367        72.4411      
  3.97200000000E+09 -0.315368        112.647       -35.4527         9.575         -35.3891         9.2982        -0.500946        72.3472      
  3.97300000000E+09 -0.313667        112.52        -35.6731         9.02199       -35.5923         8.65347       -0.498245        72.2659      
  3.97400000000E+09 -0.315925        112.424       -35.9252         8.43093       -35.811          8.0728        -0.489527        72.1539      
  3.97500000000E+09 -0.31841         112.353       -36.1674         7.94128       -36.0393         7.65296       -0.498859        72.0209      
  3.97600000000E+09 -0.315396        112.25        -36.3259         7.30279       -36.2741         6.87125       -0.506524        71.9867      
  3.97700000000E+09 -0.305357        112.138       -36.52           6.84145       -36.3932         6.65642       -0.49458         71.8689      
  3.97800000000E+09 -0.306148        112.093       -36.7123         6.47907       -36.6561         6.05266       -0.491598        71.7529      
  3.97900000000E+09 -0.305013        111.965       -36.9308         6.41993       -36.8408         6.0433        -0.485437        71.725       
  3.98000000000E+09 -0.303733        111.918       -37.1035         5.9759        -37.0642         5.60005       -0.503317        71.6029      
  3.98100000000E+09 -0.309256        111.786       -37.3193         5.48366       -37.2206         5.00448       -0.490446        71.4864      
  3.98200000000E+09 -0.308413        111.703       -37.4781         5.12395       -37.4            5.03744       -0.492896        71.3433      
  3.98300000000E+09 -0.30629         111.617       -37.6735         4.93138       -37.5626         4.34563       -0.490027        71.3664      
  3.98400000000E+09 -0.300011        111.511       -37.8253         4.44146       -37.7254         4.10318       -0.490521        71.2036      
  3.98500000000E+09 -0.302594        111.43        -37.9925         4.21887       -37.9093         3.46134       -0.496192        71.1976      
  3.98600000000E+09 -0.302447        111.346       -38.1398         4.1028        -38.1422         3.56284       -0.491014        71.0737      
  3.98700000000E+09 -0.306347        111.284       -38.3003         3.70322       -38.2723         3.30332       -0.495641        71.0244      
  3.98800000000E+09 -0.306734        111.202       -38.5041         3.41703       -38.4553         2.69493       -0.490981        70.9344      
  3.98900000000E+09 -0.302783        111.085       -38.6311         2.98742       -38.5671         2.58057       -0.491466        70.8231      
  3.99000000000E+09 -0.300325        111.011       -38.7629         3.19664       -38.6898         2.76673       -0.485299        70.7592      
  3.99100000000E+09 -0.303944        110.95        -38.9604         2.88784       -38.8321         2.75775       -0.497459        70.664       
  3.99200000000E+09 -0.299163        110.859       -39.0188         2.72782       -38.9681         2.37049       -0.493842        70.5738      
  3.99300000000E+09 -0.299891        110.782       -39.2109         2.30201       -39.1335         2.07139       -0.496301        70.5124      
  3.99400000000E+09 -0.300518        110.68        -39.304          2.40643       -39.2982         1.91704       -0.498286        70.4258      
  3.99500000000E+09 -0.302778        110.607       -39.4436         2.16471       -39.4422         1.89337       -0.495486        70.3226      
  3.99600000000E+09 -0.301677        110.528       -39.6174         2.25688       -39.5676         1.60174       -0.499355        70.2432      
  3.99700000000E+09 -0.299688        110.444       -39.7662         2.09033       -39.6935         1.38436       -0.498498        70.1654      
  3.99800000000E+09 -0.301994        110.348       -39.9125         1.76107       -39.8262         1.69598       -0.496254        70.1004      
  3.99900000000E+09 -0.303724        110.292       -40.0216         1.76705       -39.9544         1.58059       -0.49615         70.0062      
  4.00000000000E+09 -0.298704        110.194       -40.0229         1.70499       -40.09           0.982062      -0.49657         69.9427      
  4.00100000000E+09 -0.301779        110.213       -40.2534         0.354746      -39.9142         1.09366       -0.488849        69.9001      
  4.00200000000E+09 -0.31446         110.077       -40.4087         1.11705       -40.2637         0.957639      -0.496323        69.7539      
  4.00300000000E+09 -0.308474        110.066       -40.4141         0.896058      -40.5366         1.01085       -0.500388        69.6751      
  4.00400000000E+09 -0.306745        109.982       -40.4096         0.65234       -40.6611         0.156262      -0.503296        69.663       
  4.00500000000E+09 -0.314186        109.862       -40.6038         0.706611      -40.5775         0.802646      -0.501768        69.5981      
  4.00600000000E+09 -0.309034        109.787       -40.8407         0.41141       -40.798          0.788655      -0.506398        69.4498      
  4.00700000000E+09 -0.311088        109.723       -41.0054         0.491913      -41.0015         0.739152      -0.496634        69.3856      
  4.00800000000E+09 -0.308926        109.628       -40.88           1.27159       -41.0943        -0.206487      -0.496017        69.2052      
  4.00900000000E+09 -0.312169        109.552       -41.4091         2.10157       -41.0059        -0.154551      -0.525925        69.2354      
  4.01000000000E+09 -0.310389        109.482       -41.4407        -0.152551      -41.1856         0.384826      -0.493507        69.2136      
  4.01100000000E+09 -0.308973        109.407       -41.4299         0.714294      -41.3615         1.14008       -0.514185        69.0568      
  4.01200000000E+09 -0.307772        109.304       -41.6202         0.473413      -41.4348         0.133962      -0.506927        69.047       
  4.01300000000E+09 -0.312306        109.223       -41.4122         0.858678      -41.413          0.357682      -0.518548        68.9732      
  4.01400000000E+09 -0.313877        109.108       -41.5272        -0.552938      -41.3603         0.298636      -0.499387        68.8103      
  4.01500000000E+09 -0.313201        109.079       -41.4688        -0.305612      -41.854          0.17421       -0.504128        68.7735      
  4.01600000000E+09 -0.30679         108.978       -41.7868         1.64761       -41.6823        -0.541254      -0.49251         68.6066      
  4.01700000000E+09 -0.308173        108.943       -42.0448        -1.20107       -41.9583         0.904518      -0.505166        68.5836      
  4.01800000000E+09 -0.309233        108.815       -42.0725         0.685058      -41.8707         0.521281      -0.50436         68.5764      
  4.01900000000E+09 -0.313294        108.764       -42.0189         1.31951       -42.0307        -0.0903261     -0.497861        68.6024      
  4.02000000000E+09 -0.31107         108.664       -42.1951         0.435485      -42.2584        -1.24435       -0.514005        68.36        
  4.02100000000E+09 -0.307466        108.948       -42.2671        -0.0678621     -42.3341        -0.950388      -0.511139        68.3032      
  4.02200000000E+09 -0.309385        108.909       -42.6215         0.53068       -42.3155         0.187967      -0.510644        68.2932      
  4.02300000000E+09 -0.304769        108.843       -42.4242         0.539491      -42.7493         1.97354       -0.513858        68.3028      
  4.02400000000E+09 -0.300551        108.738       -42.6905         1.15652       -42.7228         1.56535       -0.506607        68.0641      
  4.02500000000E+09 -0.304734        108.686       -42.4741        -0.0710505     -42.6564         1.27213       -0.510477        68.028       
  4.02600000000E+09 -0.299488        108.585       -42.7442         3.09553       -42.5814         0.183571      -0.500887        67.9023      
  4.02700000000E+09 -0.304363        108.505       -42.9039         0.522417      -42.7492        -0.139396      -0.503795        67.8476      
  4.02800000000E+09 -0.307362        108.425       -42.8444         0.228022      -43.0124         0.750688      -0.503281        67.793       
  4.02900000000E+09 -0.305631        108.393       -43.1254        -0.22369       -43.1124         2.20597       -0.500481        67.6864      
  4.03000000000E+09 -0.305747        108.303       -43.1869         0.719925      -43.1428         0.382648      -0.503195        67.6227      
  4.03100000000E+09 -0.306909        108.257       -42.996          1.08299       -43.0999         0.321218      -0.494994        67.5388      
  4.03200000000E+09 -0.313537        108.16        -43.3394        -0.382056      -43.2095         1.68031       -0.506418        67.474       
  4.03300000000E+09 -0.317625        108.024       -43.2901         0.442482      -43.1729         2.5857        -0.508046        67.3908      
  4.03400000000E+09 -0.307429        107.985       -43.3174         2.3867        -43.2234         2.40482       -0.508811        67.3709      
  4.03500000000E+09 -0.304985        107.857       -43.601          0.469128      -43.2605        -1.12671       -0.498626        67.2645      
  4.03600000000E+09 -0.306576        107.863       -43.4711         0.716366      -43.3904         2.49931       -0.514012        67.1872      
  4.03700000000E+09 -0.307943        107.742       -43.7024         1.36071       -43.3308         2.52566       -0.508796        67.0228      
  4.03800000000E+09 -0.309066        107.755       -43.5456         1.48363       -43.5429         1.125         -0.492184        67.044       
  4.03900000000E+09 -0.322498        107.555       -43.276          2.40188       -43.4814         1.06116       -0.50518         66.9663      
  4.04000000000E+09 -0.318675        107.529       -43.3424         1.14381       -43.5441         2.35761       -0.500114        66.8062      
  4.04100000000E+09 -0.311502        107.442       -43.5677         1.59896       -43.6717         2.15811       -0.50815         66.7691      
  4.04200000000E+09 -0.311634        107.361       -43.5142         1.15037       -43.7172         1.20223       -0.512274        66.7278      
  4.04300000000E+09 -0.302729        107.309       -43.7782         0.723453      -43.4559         1.98121       -0.511864        66.6816      
  4.04400000000E+09 -0.32095         107.228       -43.6024         2.14281       -43.566          2.45134       -0.505885        66.608       
  4.04500000000E+09 -0.302264        107.193       -43.8246        -0.640138      -43.7519         1.2685        -0.510207        66.4378      
  4.04600000000E+09 -0.315592        107.058       -43.783          0.083227      -44.0209         1.02817       -0.511075        66.3606      
  4.04700000000E+09 -0.309753        106.941       -43.9418         1.55628       -43.7643         1.64806       -0.510558        66.3238      
  4.04800000000E+09 -0.309759        107.728       -43.8793         0.802096      -43.5609         0.014396      -0.501417        66.2395      
  4.04900000000E+09 -0.302045        107.634       -43.9476         1.70397       -44.1449         2.08542       -0.492198        66.2187      
  4.05000000000E+09 -0.299847        107.543       -44.1844         0.537257      -44.0103         2.8514        -0.493945        66.0855      
  4.05100000000E+09 -0.299551        107.496       -43.9135         2.54378       -44.2619         1.48268       -0.498646        66.0481      
  4.05200000000E+09 -0.305211        107.399       -44.252          0.81694       -44.2203         1.59251       -0.501146        65.9736      
  4.05300000000E+09 -0.302562        107.273       -44.1341         2.02604       -44.3017         1.22744       -0.483799        65.9073      
  4.05400000000E+09 -0.296758        107.247       -44.4851         0.83967       -44.2345         2.15317       -0.483843        65.7319      
  4.05500000000E+09 -0.302861        107.239       -44.2015         0.126084      -44.4107         2.28763       -0.489034        65.7818      
  4.05600000000E+09 -0.305936        107.251       -44.094          1.28665       -44.3418         3.84614       -0.487505        65.639       
  4.05700000000E+09 -0.287115        107.241       -44.2918         4.27703       -44.3141         0.787254      -0.490791        65.6611      
  4.05800000000E+09 -0.306492        107.208       -44.3202         2.16983       -44.3319         1.4387        -0.499037        65.6086      
  4.05900000000E+09 -0.298912        107.065       -44.5975         1.70367       -44.5304         1.21406       -0.479983        65.4614      
  4.06000000000E+09 -0.301202        106.965       -44.4369         1.55478       -44.3208         0.692322      -0.4957          65.4007      
  4.06100000000E+09 -0.309588        106.922       -44.8485         1.05576       -44.4633         0.173789      -0.48349         65.327       
  4.06200000000E+09 -0.314213        106.874       -44.4331         0.866587      -44.7126         0.256767      -0.487576        65.2596      
  4.06300000000E+09 -0.298374        106.717       -44.8433         0.903367      -44.7018         1.79902       -0.489195        65.1628      
  4.06400000000E+09 -0.326561        106.649       -44.6444         0.779777      -44.7088         1.11378       -0.489145        65.0609      
  4.06500000000E+09 -0.299365        106.626       -44.7747         2.68972       -44.8631         2.33511       -0.481287        64.9781      
  4.06600000000E+09 -0.297829        106.58        -44.6385         0.84506       -44.7518         0.821909      -0.502913        64.9321      
  4.06700000000E+09 -0.303546        106.484       -44.8736         1.90122       -44.6719         1.61213       -0.487799        64.9446      
  4.06800000000E+09 -0.306556        106.332       -44.7691         1.90411       -44.7887         0.774257      -0.490457        64.8566      
  4.06900000000E+09 -0.301895        106.312       -44.938          0.274106      -44.9321         0.220378      -0.487738        64.7557      
  4.07000000000E+09 -0.329632        106.306       -45.0048         2.49057       -45.0144         0.39846       -0.493584        64.6219      
  4.07100000000E+09 -0.305333        106.235       -44.9226         0.721756      -44.9275         0.721912      -0.490707        64.6602      
  4.07200000000E+09 -0.308305        106.032       -44.8201         0.126395      -44.9996         1.10702       -0.478906        64.4868      
  4.07300000000E+09 -0.304957        106.075       -45.1832         1.42853       -44.8068         0.250065      -0.489868        64.4652      
  4.07400000000E+09 -0.307604        105.947       -45.3656         1.08915       -45.1838         1.04023       -0.490929        64.3414      
  4.07500000000E+09 -0.323633        105.872       -44.9449         2.55915       -45.0274         1.49891       -0.493745        64.3382      
  4.07600000000E+09 -0.318015        105.829       -45.1551         1.86791       -45.2148         1.75632       -0.493367        64.2663      
  4.07700000000E+09 -0.307884        105.764       -45.1363         1.9099        -45.0926         0.943104      -0.487523        64.1858      
  4.07800000000E+09 -0.309786        105.717       -45.0459         0.565233      -45.1703         1.53365       -0.491051        64.0657      
  4.07900000000E+09 -0.319544        105.64        -45.1389        -0.0180763     -45.1083         0.00708299    -0.476128        64.001       
  4.08000000000E+09 -0.313584        105.59        -45.2167         3.32569       -45.4813         4.32899       -0.483754        63.9664      
  4.08100000000E+09 -0.31494         105.387       -45.021          1.71712       -45.1385         1.73327       -0.492201        63.8929      
  4.08200000000E+09 -0.313331        105.401       -45.3611         1.69205       -45.2402         1.11291       -0.479567        63.8324      
  4.08300000000E+09 -0.311969        105.27        -45.333          1.30419       -45.3002         2.17898       -0.482542        63.752       
  4.08400000000E+09 -0.31558         105.22        -45.5261         1.9235        -45.6177         0.310568      -0.485821        63.6298      
  4.08500000000E+09 -0.312595        105.128       -45.72           1.281         -45.7323         0.787718      -0.495098        63.6509      
  4.08600000000E+09 -0.324198        105.005       -45.469          0.159425      -45.7384         1.09666       -0.479341        63.4708      
  4.08700000000E+09 -0.312282        104.954       -45.3881         2.0908        -45.6528         0.701787      -0.475929        63.5191      
  4.08800000000E+09 -0.305207        105.055       -45.6912         2.45319       -45.5918        -0.126448      -0.4856          63.4274      
  4.08900000000E+09 -0.307752        104.799       -45.8474         2.34646       -45.6828         0.383452      -0.49558         63.3089      
  4.09000000000E+09 -0.315831        104.825       -45.4358         2.37307       -45.4426         1.52388       -0.489884        63.2445      
  4.09100000000E+09 -0.31059         104.727       -45.4325         2.59303       -45.4868         2.02346       -0.488223        63.1758      
  4.09200000000E+09 -0.316712        104.617       -45.8756         1.36795       -45.9208         0.257427      -0.486863        63.122       
  4.09300000000E+09 -0.329732        104.562       -45.5655        -0.190535      -45.5681         1.45771       -0.485261        63.0214      
  4.09400000000E+09 -0.316285        104.594       -45.8808         2.1164        -45.4583         0.703003      -0.481782        62.9983      
  4.09500000000E+09 -0.309838        104.384       -45.7297         0.963513      -45.6768         1.68937       -0.482052        62.9097      
  4.09600000000E+09 -0.305818        104.311       -45.8271         0.59003       -45.3916        -0.651673      -0.485573        62.8668      
  4.09700000000E+09 -0.316752        104.321       -45.5044        -0.0104025     -46.0578        -0.162172      -0.490101        62.7241      
  4.09800000000E+09 -0.30638         104.187       -45.7097         0.930854      -45.4821         1.64461       -0.486645        62.6781      
  4.09900000000E+09 -0.312463        104.129       -45.9846         2.24963       -45.6316         0.55912       -0.487824        62.5823      
  4.10000000000E+09 -0.321845        104.061       -45.6439         3.17127       -45.8306         1.85642       -0.479978        62.5327      
